# Output of JWST_backgrounds version 1.1.2
# background cache version 1.0

# for RA=53.129166, DEC=-27.87666667 On calendar day 280
# Columns: 
# - Wavelength [micron] 
# - Total background (MJy/sr)
# - In-field zodiacal light (MJy/sr)
# - In-field galactic light (MJy/sr)
# - Stray light (MJy/sr)
# - Thermal self-emission (MJy/sr)
0.500000    0.1727    0.1501    0.0015    0.0210    0.0000
0.600000    0.2349    0.1984    0.0021    0.0343    0.0000
0.700000    0.2625    0.2228    0.0027    0.0370    0.0000
0.800000    0.2723    0.2299    0.0033    0.0390    0.0000
0.900000    0.2694    0.2259    0.0038    0.0397    0.0000
1.000000    0.2702    0.2151    0.0043    0.0507    0.0000
1.100000    0.2543    0.2009    0.0048    0.0485    0.0000
1.200000    0.2367    0.1853    0.0052    0.0462    0.0000
1.300000    0.2228    0.1729    0.0056    0.0443    0.0000
1.400000    0.2125    0.1638    0.0060    0.0428    0.0000
1.500000    0.2023    0.1547    0.0063    0.0413    0.0000
1.600000    0.1924    0.1459    0.0066    0.0399    0.0000
1.700000    0.1830    0.1376    0.0068    0.0386    0.0000
1.800000    0.1696    0.1298    0.0070    0.0328    0.0000
1.900000    0.1613    0.1224    0.0072    0.0316    0.0000
2.000000    0.1534    0.1155    0.0074    0.0305    0.0000
2.100000    0.1466    0.1092    0.0075    0.0299    0.0000
2.200000    0.1402    0.1033    0.0075    0.0294    0.0000
2.300000    0.1330    0.0966    0.0076    0.0288    0.0000
2.400000    0.1264    0.0905    0.0077    0.0282    0.0000
2.500000    0.1203    0.0848    0.0077    0.0277    0.0000
2.600000    0.1146    0.0796    0.0077    0.0272    0.0000
2.700000    0.1094    0.0748    0.0077    0.0268    0.0000
2.800000    0.1046    0.0704    0.0077    0.0264    0.0000
2.900000    0.0930    0.0663    0.0077    0.0189    0.0000
3.000000    0.0888    0.0625    0.0077    0.0186    0.0000
3.100000    0.0848    0.0590    0.0077    0.0181    0.0000
3.200000    0.0815    0.0558    0.0079    0.0178    0.0000
3.300000    0.0797    0.0527    0.0088    0.0182    0.0001
3.400000    0.0744    0.0499    0.0076    0.0168    0.0001
3.500000    0.0855    0.0598    0.0075    0.0180    0.0002
3.700000    0.0934    0.0669    0.0074    0.0187    0.0003
4.000000    0.1210    0.0914    0.0074    0.0212    0.0009
4.250000    0.1593    0.1288    0.0073    0.0213    0.0019
4.500000    0.2230    0.1852    0.0073    0.0270    0.0035
4.750000    0.3112    0.2632    0.0073    0.0346    0.0061
5.000000    0.4248    0.3636    0.0074    0.0440    0.0099
5.100000    0.4880    0.4191    0.0074    0.0496    0.0118
5.200000    0.5584    0.4809    0.0075    0.0559    0.0140
5.300000    0.6378    0.5492    0.0085    0.0635    0.0165
5.400000    0.7221    0.6243    0.0078    0.0706    0.0194
5.500000    0.8163    0.7063    0.0082    0.0792    0.0225
5.700000    1.0326    0.8919    0.0110    0.0998    0.0299
5.900000    1.2781    1.1068    0.0111    0.1214    0.0388
6.100000    1.5683    1.3516    0.0185    0.1487    0.0495
6.300000    1.9101    1.6261    0.0343    0.1875    0.0621
6.500000    2.2340    1.9299    0.0195    0.2078    0.0769
6.700000    2.6141    2.2619    0.0180    0.2403    0.0940
6.900000    3.0324    2.6206    0.0201    0.2781    0.1136
7.100000    3.4805    3.0045    0.0217    0.3183    0.1360
7.300000    3.9661    3.4115    0.0283    0.3646    0.1617
7.500000    4.4925    3.8394    0.0429    0.4194    0.1909
7.700000    5.0345    4.2858    0.0522    0.4723    0.2243
7.900000    5.5685    4.7482    0.0440    0.5140    0.2623
8.100000    6.1181    5.2243    0.0331    0.5550    0.3057
8.300000    6.7011    5.7113    0.0306    0.6039    0.3553
8.500000    7.3102    6.2069    0.0333    0.6579    0.4121
8.700000    7.9272    6.7085    0.0317    0.7095    0.4774
8.900000    8.5447    7.2139    0.0226    0.7559    0.5523
9.100000    9.1877    7.7207    0.0203    0.8081    0.6386
9.300000    9.8457    8.2269    0.0193    0.8616    0.7379
9.500000    10.5175    8.7304    0.0191    0.9159    0.8522
9.700000    11.2022    9.2293    0.0202    0.9689    0.9837
9.900000    11.9016    9.7220    0.0210    1.0236    1.1350
10.100000    12.6098    10.2069    0.0206    1.0743    1.3080
10.300000    13.3314    10.6826    0.0203    1.1216    1.5070
10.500000    14.0735    11.1478    0.0222    1.1696    1.7340
10.700000    14.8341    11.6013    0.0237    1.2161    1.9930
10.900000    15.6180    12.0422    0.0266    1.2623    2.2870
11.100000    16.4421    12.4696    0.0376    1.3138    2.6210
11.300000    17.3028    12.8829    0.0537    1.3682    2.9980
11.500000    18.1529    13.2813    0.0473    1.4023    3.4220
11.700000    19.0259    13.6644    0.0337    1.4288    3.8990
11.900000    19.9612    14.0317    0.0324    1.4640    4.4330
12.100000    21.0010    14.4357    0.0337    1.5036    5.0280
12.300000    22.1561    14.8806    0.0353    1.5492    5.6910
12.500000    23.3710    15.3150    0.0366    1.5934    6.4260
12.700000    24.6504    15.7385    0.0376    1.6362    7.2380
12.900000    25.9952    16.1508    0.0353    1.6751    8.1340
13.100000    27.4118    16.5517    0.0309    1.7112    9.1180
13.300000    28.9180    16.9410    0.0289    1.7480    10.2000
13.500000    30.5133    17.3187    0.0291    1.7855    11.3800
13.700000    32.2040    17.6846    0.0284    1.8210    12.6700
13.900000    33.9903    18.0386    0.0269    1.8548    14.0700
14.100000    35.8969    18.3808    0.0273    1.8888    15.6000
14.300000    37.9091    18.7113    0.0268    1.9210    17.2500
14.500000    40.0481    19.0300    0.0262    1.9518    19.0400
14.700000    42.3136    19.3370    0.0253    1.9813    20.9700
14.900000    44.7177    19.6325    0.0250    2.0101    23.0500
15.100000    47.2696    19.9166    0.0249    2.0380    25.2900
15.300000    49.9783    20.1894    0.0245    2.0644    27.7000
15.500000    52.8592    20.4511    0.0264    2.0917    30.2900
16.500000    70.0927    21.5995    0.0279    2.2054    46.2600
17.500000    93.2244    22.5004    0.0295    2.2944    68.4000
18.500000    124.2551    23.1823    0.0309    2.3618    98.6800
19.500000    165.8169    23.6741    0.0325    2.4103    139.7000
20.500000    221.3800    24.0030    0.0342    2.4427    194.9000
21.500000    295.2915    24.1940    0.0359    2.4615    268.6000
22.500000    392.7758    24.2693    0.0377    2.4689    366.0000
23.500000    519.9545    24.2483    0.0395    2.4667    493.2000
24.500000    683.8461    24.1480    0.0414    2.4568    657.2000
25.500000    891.9350    23.7721    0.0435    2.4193    865.7000
26.500000    1152.5468    23.1441    0.0460    2.3567    1127.0000
27.500000    1474.8304    22.4903    0.0485    2.2916    1450.0000
28.500000    1867.0971    21.8208    0.0512    2.2250    1843.0000
29.500000    2338.3554    21.1436    0.0541    2.1577    2315.0000
30.500000    2896.6125    20.4652    0.0570    2.0903    2874.0000
31.000000    3147.2423    20.1271    0.0584    2.0568    3125.0000
