# Output of JWST_backgrounds version 1.1.2
# background cache version 1.0

# for RA=53.129166, DEC=-27.8766666 On calendar day 282
# Columns: 
# - Wavelength [micron] 
# - Total background (MJy/sr)
# - In-field zodiacal light (MJy/sr)
# - In-field galactic light (MJy/sr)
# - Stray light (MJy/sr)
# - Thermal self-emission (MJy/sr)
0.500000    0.1729    0.1503    0.0015    0.0210    0.0000
0.600000    0.2351    0.1987    0.0021    0.0343    0.0000
0.700000    0.2627    0.2230    0.0027    0.0370    0.0000
0.800000    0.2725    0.2302    0.0033    0.0390    0.0000
0.900000    0.2696    0.2261    0.0038    0.0396    0.0000
1.000000    0.2704    0.2154    0.0043    0.0506    0.0000
1.100000    0.2544    0.2012    0.0048    0.0484    0.0000
1.200000    0.2368    0.1855    0.0052    0.0461    0.0000
1.300000    0.2228    0.1731    0.0056    0.0442    0.0000
1.400000    0.2126    0.1639    0.0060    0.0427    0.0000
1.500000    0.2023    0.1548    0.0063    0.0412    0.0000
1.600000    0.1924    0.1460    0.0066    0.0398    0.0000
1.700000    0.1829    0.1377    0.0068    0.0384    0.0000
1.800000    0.1695    0.1298    0.0070    0.0327    0.0000
1.900000    0.1611    0.1224    0.0072    0.0315    0.0000
2.000000    0.1533    0.1155    0.0074    0.0304    0.0000
2.100000    0.1464    0.1092    0.0075    0.0298    0.0000
2.200000    0.1400    0.1032    0.0075    0.0293    0.0000
2.300000    0.1329    0.0966    0.0076    0.0287    0.0000
2.400000    0.1262    0.0904    0.0077    0.0281    0.0000
2.500000    0.1201    0.0848    0.0077    0.0276    0.0000
2.600000    0.1144    0.0796    0.0077    0.0271    0.0000
2.700000    0.1092    0.0748    0.0077    0.0267    0.0000
2.800000    0.1044    0.0703    0.0077    0.0263    0.0000
2.900000    0.0928    0.0662    0.0077    0.0188    0.0000
3.000000    0.0887    0.0624    0.0077    0.0185    0.0000
3.100000    0.0847    0.0589    0.0077    0.0180    0.0000
3.200000    0.0813    0.0557    0.0079    0.0177    0.0000
3.300000    0.0796    0.0527    0.0088    0.0181    0.0001
3.400000    0.0742    0.0498    0.0076    0.0167    0.0001
3.500000    0.0853    0.0597    0.0075    0.0179    0.0002
3.700000    0.0931    0.0667    0.0074    0.0186    0.0003
4.000000    0.1206    0.0911    0.0074    0.0211    0.0009
4.250000    0.1586    0.1282    0.0073    0.0212    0.0019
4.500000    0.2220    0.1844    0.0073    0.0269    0.0035
4.750000    0.3097    0.2620    0.0073    0.0344    0.0061
5.000000    0.4227    0.3618    0.0074    0.0437    0.0099
5.100000    0.4856    0.4170    0.0074    0.0493    0.0118
5.200000    0.5556    0.4785    0.0075    0.0556    0.0140
5.300000    0.6347    0.5465    0.0085    0.0631    0.0165
5.400000    0.7185    0.6212    0.0078    0.0702    0.0194
5.500000    0.8122    0.7028    0.0082    0.0787    0.0225
5.700000    1.0274    0.8874    0.0110    0.0991    0.0299
5.900000    1.2718    1.1014    0.0111    0.1206    0.0388
6.100000    1.5605    1.3450    0.0185    0.1476    0.0495
6.300000    1.9006    1.6182    0.0343    0.1860    0.0621
6.500000    2.2231    1.9206    0.0195    0.2062    0.0769
6.700000    2.6014    2.2510    0.0180    0.2384    0.0940
6.900000    3.0178    2.6082    0.0201    0.2760    0.1136
7.100000    3.4639    2.9903    0.0217    0.3158    0.1360
7.300000    3.9472    3.3955    0.0283    0.3617    0.1617
7.500000    4.4712    3.8215    0.0429    0.4159    0.1909
7.700000    5.0107    4.2660    0.0522    0.4683    0.2243
7.900000    5.5426    4.7265    0.0440    0.5097    0.2623
8.100000    6.0900    5.2005    0.0331    0.5506    0.3057
8.300000    6.6706    5.6856    0.0306    0.5991    0.3553
8.500000    7.2772    6.1791    0.0333    0.6527    0.4121
8.700000    7.8918    6.6788    0.0317    0.7040    0.4774
8.900000    8.5071    7.1821    0.0226    0.7501    0.5523
9.100000    9.1478    7.6870    0.0203    0.8020    0.6386
9.300000    9.8035    8.1912    0.0193    0.8551    0.7379
9.500000    10.4730    8.6927    0.0191    0.9090    0.8522
9.700000    11.1554    9.1898    0.0202    0.9616    0.9837
9.900000    11.8526    9.6807    0.0210    1.0159    1.1350
10.100000    12.5586    10.1638    0.0206    1.0662    1.3080
10.300000    13.2782    10.6378    0.0203    1.1131    1.5070
10.500000    14.0182    11.1013    0.0222    1.1607    1.7340
10.700000    14.7768    11.5533    0.0237    1.2068    1.9930
10.900000    15.5588    11.9927    0.0266    1.2526    2.2870
11.100000    16.3809    12.4187    0.0376    1.3036    2.6210
11.300000    17.2396    12.8306    0.0537    1.3572    2.9980
11.500000    18.0882    13.2277    0.0473    1.3911    3.4220
11.700000    18.9599    13.6096    0.0337    1.4176    3.8990
11.900000    19.8938    13.9758    0.0324    1.4525    4.4330
12.100000    20.9320    14.3785    0.0337    1.4918    5.0280
12.300000    22.0853    14.8220    0.0353    1.5370    5.6910
12.500000    23.2984    15.2551    0.0366    1.5808    6.4260
12.700000    24.5761    15.6772    0.0376    1.6232    7.2380
12.900000    25.9194    16.0883    0.0353    1.6618    8.1340
13.100000    27.3346    16.4880    0.0309    1.6976    9.1180
13.300000    28.8393    16.8762    0.0289    1.7342    10.2000
13.500000    30.4333    17.2528    0.0291    1.7714    11.3800
13.700000    32.1226    17.6176    0.0284    1.8066    12.6700
13.900000    33.9077    17.9707    0.0269    1.8400    14.0700
14.100000    35.8131    18.3120    0.0273    1.8738    15.6000
14.300000    37.8241    18.6416    0.0268    1.9057    17.2500
14.500000    39.9620    18.9595    0.0262    1.9363    19.0400
14.700000    42.2265    19.2657    0.0253    1.9655    20.9700
14.900000    44.6296    19.5605    0.0250    1.9941    23.0500
15.100000    47.1806    19.8439    0.0249    2.0218    25.2900
15.300000    49.8885    20.1161    0.0245    2.0480    27.7000
15.500000    52.7685    20.3772    0.0264    2.0750    30.2900
16.500000    69.9987    21.5231    0.0279    2.1877    46.2600
17.500000    93.1281    22.4225    0.0295    2.2760    68.4000
18.500000    124.1574    23.1037    0.0309    2.3427    98.6800
19.500000    165.7187    23.5953    0.0325    2.3909    139.7000
20.500000    221.2818    23.9245    0.0342    2.4230    194.9000
21.500000    295.1938    24.1161    0.0359    2.4417    268.6000
22.500000    392.6790    24.1924    0.0377    2.4490    366.0000
23.500000    519.8589    24.1726    0.0395    2.4468    493.2000
24.500000    683.7519    24.0736    0.0414    2.4370    657.2000
25.500000    891.8432    23.6998    0.0435    2.3998    865.7000
26.500000    1152.4583    23.0746    0.0460    2.3377    1127.0000
27.500000    1474.7452    22.4235    0.0485    2.2731    1450.0000
28.500000    1867.0150    21.7567    0.0512    2.2071    1843.0000
29.500000    2338.2765    21.0821    0.0541    2.1403    2315.0000
30.500000    2896.5367    20.4062    0.0570    2.0735    2874.0000
31.000000    3147.1681    20.0694    0.0584    2.0402    3125.0000
